Folder: hyperspectral_notebook/example_ref_library

Note: README.md
# hyperspectral_notebook
Working self contained Jupyter system based Jupyter notebook stacks to encompass all Python and R hyper-spectral analysis dependencies

Contains script for running the notebook with a logcal folder mount to allow for persistence within the notebook and all underlying dependencies for most hyperspectral processing like gdal.

File: Hydrous-Silica_01.csv
Wavelength (nm),Reflectance (%)
448,50.41
456,50.79
464,50.92
472,51.33
480,51.74
488,52.01
496,52.07
504,52.14
512,52.12
520,51.96
528,51.74
536,51.55
544,51.27
552,51.02
560,50.69
568,50.29
576,50.15
584,50.01
592,49.75
600,49.61
608,49.42
616,49.3
624,49.27
632,49.16
640,49.06
648,48.96
656,48.88
664,48.76
672,48.6
680,48.46
688,48.39
696,48.3
704,48.15
712,47.99
720,47.94
728,48.08
736,47.98
744,47.88
752,47.84
760,47.82
768,47.68
776,47.63
784,47.61
792,47.42
800,47.31
808,47.23
816,47.2
824,46.87
832,46.45
840,46.16
848,45.71
856,45.29
864,44.95
872,44.51
880,44.25
888,44.16
896,43.98
904,43.9
912,43.85
920,43.87
928,43.9
936,43.87
944,43.92
952,43.86
960,43.8
968,43.76
976,43.69
984,43.59
992,43.51
1000,43.42
1008,43.26
1016,43.16
1024,42.97
1032,42.82
1040,42.75
1048,42.64
1056,42.55
1064,42.38
1072,42.3
1080,42.19
1088,42.14
1096,42.07
1104,42
1112,41.92
1120,41.93
1128,41.97
1136,41.95
1144,41.92
1152,41.91
1160,42
1168,42.05
1176,42.06
1184,42.13
1192,42.2
1200,42.24
1208,42.28
1216,42.32
1224,42.36
1232,42.42
1240,42.56
1248,42.58
1256,42.65
1264,42.7
1272,42.73
1280,42.79
1288,42.77
1296,42.85
1304,42.88
1312,42.94
1320,42.94
1328,42.95
1336,42.89
1344,42.84
1352,42.82
1360,42.82
1368,42.75
1376,42.67
1384,42.44
1392,41.9
1400,41.1
1408,40.46
1416,40.41
1424,40.51
1432,40.31
1440,40.16
1448,40.09
1456,40.06
1464,40.04
1472,40.17
1480,40.31
1488,40.43
1496,40.61
1504,40.76
1512,40.8
1520,40.81
1528,40.8
1536,40.9
1544,41.03
1552,41.13
1560,41.15
1568,41.21
1576,41.26
1584,41.22
1592,41.22
1600,41.2
1608,41.19
1616,41.2
1624,41.28
1632,41.31
1640,41.31
1648,41.25
1656,41.23
1664,41.26
1672,41.25
1680,41.28
1688,41.22
1696,41
1704,40.84
1712,40.64
1720,40.44
1728,40.31
1736,40.27
1744,40.19
1752,40.04
1760,39.93
1768,39.91
1776,39.88
1784,39.77
1792,39.59
1800,39.45
1808,39.31
1816,39.19
1824,39.12
1832,38.95
1840,38.72
1848,38.63
1856,38.39
1864,37.93
1872,37.17
1880,36.26
1888,35.04
1896,33.33
1904,31.65
1912,30.41
1920,29.54
1928,28.87
1936,28.61
1944,28.62
1952,28.66
1960,28.84
1968,29.21
1976,29.61
1984,30.03
1992,30.48
2000,30.92
2008,31.51
2016,32.01
2024,32.44
2032,32.79
2040,33.15
2048,33.56
2056,33.73
2064,33.89
2072,34.02
2080,34.18
2088,34.4
2096,34.43
2104,34.48
2112,34.5
2120,34.49
2128,34.44
2136,34.42
2144,34.26
2152,34
2160,33.82
2168,33.72
2176,33.61
2184,33.4
2192,33.21
2200,33.03
2208,32.8
2216,32.61
2224,32.39
2232,32.16
2240,31.86
2248,31.48
2256,31.11
2264,30.8
2272,30.62
2280,30.23
2288,29.74
2296,29.39
2304,28.95
2312,28.42
2320,27.9
2328,27.23
2336,26.64
2344,26.67
2352,27.19
2360,27.81
2368,28.39
2376,28.54
2384,28.57
2392,28.41
2400,28.29
2408,28.13
2416,27.72
2424,27.26
2432,26.81
2440,26.49
2448,26.25
2456,25.83
2464,25.24
2472,24.5
2480,23.89
2488,23.5
2496,23.62
2500,23.67

File: IronOxide_01.csv
Wavelength (nm),Reflectance (%)
448,19.93
456,19.99
464,19.9
472,20
480,20.21
488,20.49
496,20.79
504,21.17
512,21.64
520,22.27
528,22.94
536,23.73
544,24.52
552,25.4
560,26.37
568,27.28
576,28.14
584,28.89
592,29.42
600,29.84
608,30.12
616,30.3
624,30.46
632,30.52
640,30.72
648,30.74
656,30.81
664,31.06
672,31.26
680,31.47
688,31.68
696,31.86
704,32.16
712,32.43
720,32.66
728,32.95
736,33.09
744,33.15
752,33.22
760,33.2
768,33.05
776,32.86
784,32.64
792,32.35
800,32.03
808,31.74
816,31.43
824,31.2
832,31.14
840,30.79
848,30.52
856,30.09
864,29.77
872,29.54
880,29.36
888,29.11
896,28.89
904,28.66
912,28.58
920,28.57
928,28.49
936,28.36
944,28.34
952,28.31
960,28.31
968,28.27
976,28.36
984,28.35
992,28.36
1000,28.53
1008,28.62
1016,28.8
1024,28.95
1032,29.07
1040,29.28
1048,29.43
1056,29.7
1064,29.9
1072,30.13
1080,30.46
1088,30.74
1096,31.02
1104,31.38
1112,31.79
1120,32.18
1128,32.6
1136,33.04
1144,33.52
1152,33.95
1160,34.4
1168,34.85
1176,35.27
1184,35.74
1192,36.16
1200,36.62
1208,36.97
1216,37.4
1224,37.79
1232,38.08
1240,38.32
1248,38.61
1256,38.86
1264,39.06
1272,39.08
1280,39.17
1288,39.42
1296,39.68
1304,39.9
1312,40.07
1320,40.24
1328,40.32
1336,40.34
1344,40.4
1352,40.39
1360,40.35
1368,40.38
1376,40.44
1384,40.23
1392,39.71
1400,38.93
1408,38.45
1416,38.51
1424,38.87
1432,39.04
1440,39.16
1448,39.28
1456,39.3
1464,39.5
1472,39.68
1480,39.83
1488,40
1496,40.15
1504,40.33
1512,40.55
1520,40.59
1528,40.75
1536,40.78
1544,40.75
1552,40.82
1560,40.79
1568,40.75
1576,40.64
1584,40.49
1592,40.4
1600,40.35
1608,40.19
1616,40.1
1624,40.01
1632,39.96
1640,39.86
1648,39.81
1656,39.75
1664,39.72
1672,39.68
1680,39.64
1688,39.61
1696,39.51
1704,39.53
1712,39.54
1720,39.56
1728,39.47
1736,39.29
1744,39.19
1752,39.12
1760,39.11
1768,39.02
1776,38.97
1784,38.81
1792,38.79
1800,38.83
1808,38.85
1816,38.87
1824,38.81
1832,38.7
1840,38.58
1848,38.55
1856,38.34
1864,37.97
1872,37.38
1880,36.4
1888,35.05
1896,33.77
1904,32.73
1912,32.04
1920,31.8
1928,31.62
1936,31.51
1944,31.66
1952,31.85
1960,32.06
1968,32.31
1976,32.61
1984,32.91
1992,33.22
2000,33.53
2008,33.88
2016,34.21
2024,34.59
2032,34.97
2040,35.33
2048,35.56
2056,35.72
2064,35.88
2072,36.12
2080,36.28
2088,36.37
2096,36.41
2104,36.38
2112,36.43
2120,36.52
2128,36.52
2136,36.5
2144,36.34
2152,36.06
2160,35.81
2168,35.37
2176,34.73
2184,34.03
2192,33.37
2200,33.16
2208,33.21
2216,33.46
2224,33.61
2232,33.63
2240,33.45
2248,33.23
2256,32.94
2264,32.65
2272,32.38
2280,32.1
2288,31.72
2296,31.31
2304,30.85
2312,30.44
2320,30.11
2328,29.78
2336,29.61
2344,29.61
2352,29.58
2360,29.57
2368,29.49
2376,29.27
2384,29.09
2392,28.88
2400,28.65
2408,28.42
2416,28.15
2424,27.87
2432,27.62
2440,27.48
2448,27.45
2456,27.36
2464,27.4
2472,27.4
2480,27.5
2488,27.59
2496,27.62
2500,27.71