Folder: hyperspectral_notebook/reference_lib

Note: README.md
# hyperspectral_notebook
Working self contained Jupyter system based Jupyter notebook stacks to encompass all Python and R hyper-spectral analysis dependencies

Contains script for running the notebook with a logcal folder mount to allow for persistence within the notebook and all underlying dependencies for most hyperspectral processing like gdal.

File: Carbonate_2520_Calcite_01.csv
Wavelength (nm),Reflectance (%)
452,16.65
460,17.19
468,17.67
476,17.89
484,18.32
492,18.72
500,19.34
508,20.07
516,20.74
524,21.32
532,22.03
540,22.91
548,23.85
556,24.73
564,25.62
572,26.49
580,27.22
588,27.79
596,28.49
604,28.94
612,29.42
620,29.75
628,30.3
636,30.66
644,31.07
652,31.56
660,31.81
668,32.26
676,32.72
684,33.11
692,33.51
700,33.79
708,34.15
716,34.57
724,34.88
732,35.33
740,35.58
748,35.9
756,36.2
764,36.48
772,36.71
780,36.89
788,37.12
796,37.16
804,37.3
812,37.31
820,37.25
828,37.13
836,37.02
844,36.93
852,36.83
860,36.84
868,36.66
876,36.58
884,36.67
892,36.49
900,36.61
908,36.76
916,36.68
924,36.61
932,36.69
940,36.93
948,37.09
956,36.93
964,37.11
972,37.09
980,37.53
988,37.46
996,37.66
1004,37.67
1012,37.85
1020,37.9
1028,38.22
1036,38.17
1044,38.55
1052,38.61
1060,38.86
1068,39.13
1076,39.51
1084,39.73
1092,40.06
1100,40.26
1108,40.4
1116,40.71
1124,41.02
1132,41.07
1140,41.46
1148,41.33
1156,41.89
1164,42.01
1172,42.38
1180,42.25
1188,42.54
1196,42.53
1204,42.81
1212,42.87
1220,42.77
1228,42.85
1236,43.11
1244,43.1
1252,43.18
1260,43.19
1268,43.48
1276,43.63
1284,43.58
1292,43.79
1300,43.69
1308,43.9
1316,43.83
1324,43.85
1332,43.87
1340,43.92
1348,44.07
1356,44.03
1364,44
1372,43.87
1380,43.86
1388,43.56
1396,43.33
1404,42.6
1412,42
1420,41.53
1428,41.79
1436,42.33
1444,42.37
1452,42.76
1460,42.67
1468,42.9
1476,43.08
1484,43.32
1492,43.6
1500,43.76
1508,43.83
1516,43.99
1524,44.17
1532,44.31
1540,44.2
1548,44.16
1556,44.29
1564,44.32
1572,44.49
1580,44.5
1588,44.56
1596,44.57
1604,44.55
1612,44.52
1620,44.42
1628,44.48
1636,44.39
1644,44.33
1652,44.31
1660,44.33
1668,44.32
1676,44.22
1684,44.28
1692,44.09
1700,43.96
1708,44.06
1716,43.92
1724,43.71
1732,43.61
1740,43.54
1748,43.48
1756,43.38
1764,43.27
1772,43.15
1780,43.11
1788,43.06
1796,43
1804,42.99
1812,42.89
1820,42.74
1828,42.66
1836,42.7
1844,42.41
1852,42.49
1860,42.16
1868,41.72
1876,40.86
1884,39.66
1892,37.83
1900,34.96
1908,33.06
1916,32.76
1924,33.23
1932,34.07
1940,34.75
1948,35.14
1956,35.43
1964,35.86
1972,36.05
1980,36.51
1988,36.9
1996,37.29
2004,37.78
2012,38.3
2020,38.68
2028,39.14
2036,39.61
2044,39.89
2052,40.08
2060,40.43
2068,40.57
2076,40.73
2084,41.08
2092,41.3
2100,41.57
2108,41.72
2116,41.95
2124,41.99
2132,42.1
2140,42.18
2148,41.99
2156,41.99
2164,41.68
2172,41.34
2180,41.06
2188,40.66
2196,40.13
2204,39.69
2212,39.21
2220,39.08
2228,39.05
2236,38.8
2244,38.47
2252,38.2
2260,37.93
2268,37.86
2276,37.35
2284,36.81
2292,36.32
2300,35.83
2308,35.52
2316,35.07
2324,34.7
2332,34.22
2340,34.18
2348,34.73
2356,35.51
2364,36.2
2372,36.56
2380,36.39
2388,36.39
2396,36.23
2404,35.91
2412,35.48
2420,35.09
2428,34.61
2436,33.94
2444,33.38
2452,32.85
2460,32.31
2468,31.69
2476,31.01
2484,30.41
2492,29.98
2500,29.69
2508,29.43
2516,29.14
2524,28.87
2532,28.54
2540,28.79
2548,29.85
2556,30.85
2560,31.46

File: Carbonate_2520_Dolomite_01.csv
Wavelength (nm),Reflectance (%)
452,22.13
460,22.7
468,23.63
476,24.47
484,25.64
492,27.51
500,29.04
508,31.5
516,33.73
524,35.32
532,37.03
540,38.68
548,40.17
556,41.93
564,43.2
572,44.28
580,45.21
588,45.61
596,46.13
604,46.66
612,47.58
620,48.25
628,49.42
636,51.11
644,52.54
652,53.97
660,55.46
668,57.46
676,58.53
684,59.36
692,61.2
700,62.4
708,63.84
716,65.32
724,66.41
732,67.54
740,68.76
748,69.95
756,70.7
764,72.11
772,73.29
780,74.28
788,74.94
796,75.87
804,76.8
812,77.47
820,77.97
828,78.28
836,78.63
844,78.25
852,78.31
860,77.92
868,77.85
876,78.03
884,78.04
892,77.97
900,77.88
908,78.44
916,78.63
924,79.11
932,79.4
940,79.77
948,80.45
956,80.67
964,81
972,81.51
980,81.66
988,82.23
996,82.67
1004,83.26
1012,83.78
1020,84.17
1028,84.48
1036,84.78
1044,85.73
1052,86.52
1060,86.74
1068,87.45
1076,87.67
1084,88.83
1092,89.27
1100,89.58
1108,90.62
1116,90.98
1124,91.89
1132,91.87
1140,92.25
1148,91.83
1156,91.35
1164,92.57
1172,92.91
1180,93.55
1188,93.84
1196,93.95
1204,95.3
1212,95.49
1220,95.74
1228,96.08
1236,96.91
1244,97.91
1252,98.45
1260,99.02
1268,99.23
1276,99.31
1284,99.54
1292,99.74
1300,99.5
1308,99.46
1316,98.72
1324,99.1
1332,98.07
1340,97.3
1348,95.99
1356,94.91
1364,93.73
1372,91.29
1380,85.93
1388,80.03
1396,73.96
1404,67.16
1412,59.57
1420,58.75
1428,61.44
1436,64.59
1444,66.85
1452,69.06
1460,70.52
1468,70.65
1476,72.8
1484,76.1
1492,78.45
1500,80.34
1508,81.87
1516,83.64
1524,84.96
1532,86.26
1540,86.93
1548,87.73
1556,88.25
1564,88.97
1572,90
1580,90.54
1588,90.59
1596,90.85
1604,91.12
1612,91.37
1620,91.38
1628,91.47
1636,91.62
1644,91.54
1652,91.53
1660,91.57
1668,91.19
1676,90.74
1684,89.82
1692,88.92
1700,88.35
1708,87.63
1716,87.14
1724,86.55
1732,85.82
1740,85.2
1748,84.96
1756,84.4
1764,83.61
1772,82.78
1780,81.82
1788,80.76
1796,79.91
1804,79.02
1812,78.3
1820,77.39
1828,76.8
1836,75.71
1844,74.02
1852,71.8
1860,69.12
1868,66.3
1876,59.91
1884,50.95
1892,40.29
1900,29.31
1908,22.66
1916,21.89
1924,23.5
1932,27.63
1940,31.99
1948,34.69
1956,36.33
1964,37.55
1972,38.61
1980,39.92
1988,42.31
1996,44.83
2004,47.33
2012,49.45
2020,51.43
2028,53.23
2036,54.86
2044,56.06
2052,57.13
2060,58.13
2068,58.9
2076,59.34
2084,59.73
2092,60.2
2100,60.47
2108,60.5
2116,60.69
2124,60.28
2132,59.97
2140,59.51
2148,58.95
2156,58.48
2164,57.6
2172,56.12
2180,54.31
2188,52.34
2196,49.27
2204,45.07
2212,42.08
2220,39.33
2228,41.62
2236,41.01
2244,38.29
2252,35.12
2260,32.55
2268,30.78
2276,29.54
2284,28.12
2292,26.37
2300,24.54
2308,22.94
2316,21.64
2324,21.1
2332,22.71
2340,26.56
2348,30.28
2356,31.82
2364,31.59
2372,30.63
2380,29.1
2388,27.61
2396,26.44
2404,24.79
2412,23.08
2420,20.95
2428,18.58
2436,16.01
2444,13.41
2452,11.28
2460,9.68
2468,8.06
2476,6.97
2484,5.51
2492,3.15
2500,1.64
2508,0.46
2516,0
2524,0.96
2532,3.29
2540,6.75
2548,9.86
2556,11.41
2560,11.75

File: Carbonate_2520_Dolomite_02.csv
Wavelength (nm),Reflectance (%)
452,37.21
460,38.51
468,39
476,39.46
484,39.56
492,40.09
500,40.25
508,40.31
516,40.65
524,40.83
532,41.51
540,41.68
548,42.06
556,42.29
564,42.48
572,42.36
580,42.23
588,42.85
596,43.2
604,43.47
612,43.73
620,43.9
628,44.11
636,44.19
644,44.3
652,44.38
660,44.57
668,44.58
676,44.4
684,44.58
692,44.66
700,44.6
708,44.74
716,44.72
724,44.65
732,44.43
740,43.93
748,43.86
756,44.67
764,44.97
772,45.12
780,45.11
788,44.78
796,44.12
804,44.17
812,44.67
820,44.79
828,44.8
836,44.65
844,44.39
852,44.22
860,43.96
868,43.68
876,43.58
884,43.72
892,43.36
900,43.42
908,43.47
916,43.3
924,43.1
932,43.05
940,43.13
948,43.22
956,42.93
964,43.02
972,42.77
980,42.96
988,42.8
996,42.85
1004,42.66
1012,42.66
1020,42.47
1028,42.58
1036,42.4
1044,42.56
1052,42.4
1060,42.52
1068,42.43
1076,42.66
1084,42.48
1092,42.65
1100,42.73
1108,42.68
1116,42.72
1124,42.86
1132,42.85
1140,42.85
1148,42.74
1156,42.97
1164,43.03
1172,43.23
1180,42.98
1188,43.18
1196,43.11
1204,43.31
1212,43.37
1220,43.35
1228,43.29
1236,43.47
1244,43.54
1252,43.81
1260,43.65
1268,43.91
1276,44.14
1284,44.18
1292,44.39
1300,44.4
1308,44.63
1316,44.77
1324,44.9
1332,45.03
1340,45.24
1348,45.36
1356,45.47
1364,45.32
1372,45.26
1380,44.98
1388,45.29
1396,45.59
1404,45.62
1412,45.84
1420,45.7
1428,45.88
1436,46.03
1444,46.08
1452,46.43
1460,46.43
1468,46.58
1476,46.76
1484,47.15
1492,47.46
1500,47.75
1508,47.8
1516,48.06
1524,48.33
1532,48.62
1540,48.56
1548,48.72
1556,48.78
1564,48.91
1572,49.11
1580,49.15
1588,49.35
1596,49.59
1604,49.69
1612,50
1620,50.33
1628,50.45
1636,50.59
1644,50.84
1652,51.05
1660,51.16
1668,51.01
1676,50.94
1684,51.01
1692,51.42
1700,51.26
1708,51.38
1716,51.39
1724,51.56
1732,51.36
1740,51.52
1748,51.7
1756,51.77
1764,51.86
1772,51.68
1780,51.65
1788,51.64
1796,51.62
1804,51.63
1812,51.53
1820,51.56
1828,51.41
1836,50.97
1844,50.97
1852,50.87
1860,50.66
1868,50.36
1876,50.21
1884,49.54
1892,48.19
1900,46.87
1908,45.91
1916,45.76
1924,45.32
1932,45.23
1940,45.5
1948,45.7
1956,45.73
1964,45.85
1972,46.03
1980,46.21
1988,46.77
1996,47.31
2004,47.59
2012,47.98
2020,48.53
2028,48.72
2036,49.05
2044,49.25
2052,49.47
2060,49.31
2068,49.38
2076,49.65
2084,49.67
2092,49.75
2100,49.99
2108,50.17
2116,50.28
2124,50.2
2132,50.12
2140,50.34
2148,50.08
2156,50.06
2164,49.98
2172,49.49
2180,49.14
2188,48.87
2196,48.41
2204,48.21
2212,47.61
2220,47.39
2228,46.77
2236,46.35
2244,45.51
2252,44.49
2260,43.63
2268,42.91
2276,42.07
2284,41.79
2292,41.33
2300,40.74
2308,40.07
2316,39.28
2324,39.11
2332,39.88
2340,41.59
2348,43.25
2356,44.29
2364,44.64
2372,44.21
2380,43.92
2388,43.69
2396,43.3
2404,43.01
2412,42.65
2420,41.72
2428,40.75
2436,39.87
2444,38.67
2452,37.56
2460,36.94
2468,36.38
2476,35.83
2484,35.39
2492,34.79
2500,34.19
2508,33.62
2516,33.23
2524,33.73
2532,34.74
2540,36.21
2548,37.85
2556,38.27
2560,38.46

File: Carbonate_2520_Magnesite_01.csv
Wavelength (nm),Reflectance (%)
452,0
460,2.22
468,3.86
476,4.92
484,6.71
492,9.67
500,13.45
508,18.68
516,23.23
524,28.15
532,32.06
540,36.87
548,41.5
556,45.96
564,49.8
572,53.41
580,56.77
588,59.77
596,62.09
604,63.51
612,65.98
620,67.06
628,68.79
636,70.26
644,71
652,72.29
660,73.48
668,75.7
676,76.92
684,79.14
692,80.85
700,82.17
708,83.66
716,85.14
724,86.64
732,87.29
740,87.96
748,88.51
756,89.89
764,90.82
772,92.17
780,92.98
788,93.38
796,94.9
804,95.65
812,96.77
820,97.11
828,97.04
836,97.43
844,96.85
852,95.87
860,94.91
868,94.62
876,94.46
884,94.21
892,93.51
900,92.96
908,93.64
916,93.86
924,94.11
932,93.49
940,93.08
948,94.17
956,94.05
964,94.46
972,95.11
980,94.21
988,94.76
996,94.97
1004,95.03
1012,95.54
1020,95.4
1028,95.82
1036,95.76
1044,96.4
1052,97.5
1060,97.06
1068,97.15
1076,96.48
1084,97.82
1092,97.71
1100,97.88
1108,98.06
1116,98.5
1124,100
1132,98.61
1140,98.82
1148,98.29
1156,97.43
1164,98.91
1172,98.02
1180,98.26
1188,97.46
1196,97.01
1204,98.56
1212,97.75
1220,96.89
1228,96.25
1236,96.21
1244,96.66
1252,97.07
1260,96.39
1268,95.6
1276,95.65
1284,95.81
1292,96.54
1300,95.64
1308,95.71
1316,95.02
1324,95.79
1332,95.25
1340,95.07
1348,94.28
1356,94.53
1364,94.64
1372,95.19
1380,94.07
1388,92.83
1396,92.48
1404,92.31
1412,91.77
1420,91.18
1428,90.42
1436,90.76
1444,90.52
1452,91.78
1460,92.58
1468,91.16
1476,91.85
1484,93.11
1492,93.29
1500,93.06
1508,92.32
1516,93.46
1524,93.82
1532,94.08
1540,93.62
1548,94.21
1556,94.15
1564,94.3
1572,95.08
1580,95.41
1588,95.12
1596,95.08
1604,95.15
1612,95.51
1620,95.57
1628,95.67
1636,95.81
1644,95.68
1652,95.89
1660,96.03
1668,96.11
1676,95.82
1684,95.76
1692,95.6
1700,95.46
1708,95.53
1716,95.72
1724,95.5
1732,95.79
1740,96.12
1748,96.16
1756,96.17
1764,95.84
1772,95.37
1780,95.47
1788,95.44
1796,95.17
1804,95.4
1812,94.59
1820,94.37
1828,94.05
1836,93.46
1844,92.98
1852,93.26
1860,94.63
1868,94.79
1876,95.06
1884,93.37
1892,91.41
1900,87.73
1908,84.06
1916,82.4
1924,81.95
1932,82.88
1940,84.08
1948,84.67
1956,84.36
1964,84.55
1972,84.68
1980,85.37
1988,86.87
1996,88.38
2004,89.01
2012,89.86
2020,90.33
2028,90.68
2036,91.63
2044,92.15
2052,92.26
2060,93.29
2068,93.45
2076,92.64
2084,93.47
2092,94.7
2100,94.24
2108,94.76
2116,95.39
2124,96.54
2132,97.16
2140,97.23
2148,97.65
2156,96.72
2164,96.27
2172,95.42
2180,93.74
2188,93.19
2196,91.48
2204,89.67
2212,87.67
2220,85.52
2228,83.03
2236,79.92
2244,75.95
2252,72.73
2260,70.97
2268,69.78
2276,69.11
2284,69.2
2292,67.71
2300,66.77
2308,67.83
2316,71.2
2324,76.87
2332,83.71
2340,88.72
2348,89.84
2356,90
2364,87.22
2372,86.3
2380,85.43
2388,83.28
2396,81.27
2404,78.41
2412,75.76
2420,72.17
2428,67.01
2436,62.83
2444,58.54
2452,55.83
2460,52.91
2468,51.25
2476,48.68
2484,46.66
2492,44.48
2500,42.34
2508,43.64
2516,47.52
2524,54.86
2532,63.39
2540,72.75
2548,77.48
2556,81.42
2560,78.41

File: Carbonate_2520_Magnesite_Ni_01.csv
Wavelength (nm),Reflectance (%)
452,50.94
460,54.53
468,56.62
476,58.15
484,60.3
492,63.08
500,66.3
508,68.89
516,71.18
524,72.95
532,74.66
540,76.45
548,77.72
556,79.26
564,80.48
572,81.56
580,82.02
588,82.62
596,82.97
604,82.89
612,82.65
620,81.8
628,81.26
636,80.12
644,79.01
652,76.6
660,75.37
668,73.28
676,70.85
684,71.69
692,71.5
700,70.6
708,70.49
716,69.85
724,68.71
732,67.88
740,67
748,66.36
756,66.43
764,66.93
772,67.63
780,68.63
788,70.35
796,71.74
804,73.79
812,75.93
820,77.93
828,80.17
836,81.64
844,83.6
852,85.84
860,87.91
868,90.18
876,92.56
884,94.39
892,96.12
900,97.26
908,98.51
916,99.39
924,99.79
932,99.85
940,99.77
948,99.73
956,99.14
964,98.53
972,97.73
980,96.73
988,95.84
996,94.7
1004,93.57
1012,92.55
1020,91.34
1028,89.95
1036,88.45
1044,87.46
1052,86.32
1060,84.93
1068,83.59
1076,82.03
1084,81.16
1092,79.85
1100,78.46
1108,77.54
1116,76.15
1124,75.17
1132,73.58
1140,72.71
1148,71.63
1156,70.42
1164,70
1172,69
1180,68.29
1188,67.5
1196,66.81
1204,66.89
1212,66.51
1220,65.89
1228,65.43
1236,65.22
1244,65.2
1252,65.07
1260,64.78
1268,64.56
1276,64.48
1284,64.46
1292,64.91
1300,64.95
1308,64.79
1316,64.46
1324,65.12
1332,65
1340,65.08
1348,64.9
1356,64.88
1364,65.38
1372,65.69
1380,65.4
1388,65.79
1396,65.41
1404,64.65
1412,64.06
1420,64.21
1428,64.51
1436,64.68
1444,65.01
1452,65.4
1460,65.8
1468,65.35
1476,65.52
1484,66.15
1492,66.04
1500,65.87
1508,65.78
1516,66.08
1524,65.98
1532,66.27
1540,66.27
1548,66.63
1556,66.95
1564,67.43
1572,68
1580,68.34
1588,68.51
1596,68.77
1604,69.03
1612,69.18
1620,69.02
1628,69.08
1636,69.14
1644,69.32
1652,69.27
1660,69.22
1668,69.22
1676,68.79
1684,68.28
1692,67.84
1700,67.6
1708,67.34
1716,67.25
1724,67.11
1732,67.08
1740,67.38
1748,67.74
1756,67.76
1764,67.44
1772,66.87
1780,66.18
1788,65.52
1796,64.63
1804,63.5
1812,62.42
1820,61.31
1828,60.46
1836,59.13
1844,57.91
1852,58.23
1860,61.09
1868,62.2
1876,61.15
1884,58.34
1892,54.64
1900,50.61
1908,47.25
1916,44.93
1924,43.11
1932,41.77
1940,40.81
1948,40.09
1956,39.33
1964,38.7
1972,38.17
1980,38.48
1988,39.44
1996,40.03
2004,40.18
2012,40.4
2020,40.62
2028,40.92
2036,41.1
2044,41.21
2052,41.36
2060,41.41
2068,41.57
2076,42
2084,42.27
2092,42.67
2100,43.2
2108,43.24
2116,43.32
2124,43.58
2132,44.06
2140,45.22
2148,46.01
2156,46.28
2164,46.02
2172,45.26
2180,44.38
2188,43.15
2196,41.48
2204,39.08
2212,36.5
2220,34.57
2228,32.01
2236,28.5
2244,24.86
2252,22.45
2260,20.92
2268,19.9
2276,19.14
2284,18.8
2292,17.87
2300,17.22
2308,18.55
2316,20.37
2324,24.19
2332,29.4
2340,34.8
2348,36.57
2356,35.84
2364,33.42
2372,32.35
2380,30.54
2388,28.13
2396,25.17
2404,22.21
2412,19.33
2420,16.54
2428,13.48
2436,10.78
2444,8.24
2452,6.16
2460,4.88
2468,3.81
2476,3.08
2484,1.91
2492,0.68
2500,0.07
2508,0.2
2516,1.62
2524,4.62
2532,9.41
2540,14.8
2548,18.13
2556,19.81
2560,21.11

File: Carbonate_Fe_01.csv
Wavelength (nm),Reflectance (%)
448,36.92
456,37.26
464,37.68
472,38.38
480,38.63
488,38.94
496,39.19
504,39.35
512,39.57
520,39.99
528,40.25
536,40.8
544,41.09
552,41.56
560,41.76
568,41.85
576,41.94
584,41.98
592,42.13
600,42.07
608,42.16
616,42.14
624,42.18
632,42.29
640,42.21
648,42.29
656,42.19
664,42.45
672,42.4
680,42.3
688,42.55
696,42.47
704,42.34
712,42.25
720,42.28
728,42.02
736,41.85
744,41.66
752,41.37
760,40.95
768,40.42
776,39.95
784,39.3
792,38.61
800,37.92
808,37.13
816,36.81
824,35.89
832,34.78
840,33.65
848,32.48
856,31.29
864,30.31
872,29.31
880,28.4
888,27.51
896,26.68
904,25.98
912,25.21
920,24.49
928,23.86
936,23.25
944,22.71
952,22.24
960,21.8
968,21.35
976,20.96
984,20.63
992,20.36
1000,20.11
1008,19.88
1016,19.67
1024,19.51
1032,19.4
1040,19.3
1048,19.25
1056,19.21
1064,19.2
1072,19.16
1080,19.11
1088,19.07
1096,19.07
1104,19.1
1112,19.09
1120,19.09
1128,19.04
1136,19.02
1144,19.08
1152,19.07
1160,19.06
1168,18.97
1176,18.85
1184,18.78
1192,18.71
1200,18.62
1208,18.54
1216,18.49
1224,18.41
1232,18.34
1240,18.28
1248,18.21
1256,18.12
1264,18.09
1272,18.07
1280,17.96
1288,17.91
1296,17.89
1304,17.89
1312,17.9
1320,17.93
1328,18.02
1336,18.1
1344,18.13
1352,18.23
1360,18.36
1368,18.43
1376,18.57
1384,18.68
1392,18.86
1400,19.01
1408,19.17
1416,19.36
1424,19.55
1432,19.8
1440,20.13
1448,20.42
1456,20.76
1464,21.22
1472,21.7
1480,22.17
1488,22.66
1496,23.14
1504,23.69
1512,24.23
1520,24.71
1528,25.22
1536,25.76
1544,26.32
1552,26.87
1560,27.39
1568,27.9
1576,28.37
1584,28.81
1592,29.22
1600,29.67
1608,30.04
1616,30.41
1624,30.75
1632,31.09
1640,31.34
1648,31.64
1656,31.74
1664,31.88
1672,32.11
1680,32.29
1688,32.48
1696,32.69
1704,32.9
1712,33.05
1720,33.07
1728,33.2
1736,33.24
1744,33.33
1752,33.42
1760,33.4
1768,33.52
1776,33.64
1784,33.65
1792,33.79
1800,33.7
1808,33.7
1816,33.69
1824,33.61
1832,33.64
1840,33.59
1848,33.46
1856,33.32
1864,33.15
1872,32.94
1880,32.63
1888,32.2
1896,31.58
1904,30.95
1912,30.42
1920,30.03
1928,29.86
1936,29.81
1944,29.73
1952,29.71
1960,29.91
1968,29.98
1976,30.02
1984,30.22
1992,30.35
2000,30.59
2008,30.82
2016,31.1
2024,31.21
2032,31.33
2040,31.39
2048,31.4
2056,31.26
2064,31.32
2072,31.25
2080,31.3
2088,31.3
2096,31.27
2104,31.17
2112,31.1
2120,31.1
2128,30.82
2136,30.65
2144,30.57
2152,30.51
2160,30.66
2168,30.57
2176,30.67
2184,30.56
2192,30.49
2200,30.24
2208,29.96
2216,29.69
2224,29.44
2232,29.09
2240,28.57
2248,27.95
2256,27.25
2264,26.52
2272,25.87
2280,25.21
2288,24.72
2296,24.44
2304,23.97
2312,23.52
2320,23.03
2328,22.74
2336,22.78
2344,23.09
2352,23.96
2360,25.17
2368,26.44
2376,27.39
2384,27.62
2392,27.46
2400,27.1
2408,26.8
2416,26.44
2424,25.96
2432,25.2
2440,24.35
2448,23.37
2456,22.35
2464,21.51
2472,20.92
2480,20.47
2488,20.28
2496,19.99
2500,19.66

File: Carbonate_Fe_02.csv
Wavelength (nm),Reflectance (%)
448,33.82
456,34.48
464,35.16
472,35.79
480,36.47
488,37.14
496,37.72
504,38.36
512,38.99
520,39.76
528,40.47
536,41.14
544,41.95
552,42.7
560,43.39
568,43.91
576,44.32
584,44.76
592,45.03
600,45.1
608,45.14
616,45.32
624,45.23
632,45.38
640,45.44
648,45.53
656,45.58
664,45.53
672,45.59
680,45.6
688,45.58
696,45.57
704,45.56
712,45.51
720,45.57
728,45.33
736,45.22
744,44.95
752,44.6
760,44.16
768,43.81
776,43.27
784,42.51
792,41.92
800,41.17
808,40.23
816,39.24
824,38.51
832,38.11
840,37.09
848,35.85
856,34.74
864,33.59
872,32.49
880,31.46
888,30.41
896,29.36
904,28.47
912,27.48
920,26.52
928,25.8
936,25.02
944,24.32
952,23.78
960,23.18
968,22.53
976,22.01
984,21.69
992,21.36
1000,21.05
1008,20.73
1016,20.5
1024,20.25
1032,20.1
1040,20.02
1048,19.89
1056,19.79
1064,19.74
1072,19.79
1080,19.81
1088,19.83
1096,19.89
1104,19.91
1112,19.95
1120,19.94
1128,20.03
1136,20.1
1144,20.13
1152,20.11
1160,20.1
1168,20.07
1176,20.15
1184,20.07
1192,20
1200,19.96
1208,19.88
1216,19.82
1224,19.72
1232,19.59
1240,19.66
1248,19.65
1256,19.57
1264,19.47
1272,19.47
1280,19.38
1288,19.33
1296,19.26
1304,19.25
1312,19.36
1320,19.43
1328,19.54
1336,19.62
1344,19.71
1352,19.83
1360,20.01
1368,20.23
1376,20.39
1384,20.56
1392,20.81
1400,21
1408,21.17
1416,21.47
1424,21.79
1432,22.02
1440,22.47
1448,22.94
1456,23.32
1464,23.78
1472,24.19
1480,24.71
1488,25.31
1496,25.83
1504,26.35
1512,26.94
1520,27.46
1528,28.08
1536,28.62
1544,29.19
1552,29.79
1560,30.42
1568,31
1576,31.5
1584,32.1
1592,32.59
1600,33.05
1608,33.61
1616,34.03
1624,34.27
1632,34.43
1640,34.77
1648,35.25
1656,35.71
1664,36.01
1672,36.46
1680,36.85
1688,37.22
1696,37.48
1704,37.68
1712,37.95
1720,38.18
1728,38.44
1736,38.47
1744,38.69
1752,38.92
1760,39.19
1768,39.13
1776,39.38
1784,39.49
1792,39.5
1800,39.63
1808,39.76
1816,39.8
1824,39.83
1832,39.79
1840,39.73
1848,39.63
1856,39.35
1864,39.11
1872,38.63
1880,38.13
1888,37.24
1896,36.13
1904,35.25
1912,34.77
1920,34.39
1928,34.24
1936,34.29
1944,34.32
1952,34.41
1960,34.66
1968,34.87
1976,35.08
1984,35.4
1992,35.77
2000,36.24
2008,36.65
2016,37.03
2024,37.41
2032,37.66
2040,37.86
2048,38.16
2056,38.44
2064,38.62
2072,38.77
2080,38.72
2088,38.7
2096,38.75
2104,38.89
2112,38.75
2120,38.75
2128,38.73
2136,38.67
2144,38.68
2152,38.58
2160,38.39
2168,38.45
2176,38.4
2184,38.29
2192,38.01
2200,37.62
2208,37.15
2216,36.84
2224,36.65
2232,36.26
2240,35.71
2248,34.99
2256,34.05
2264,33
2272,32.08
2280,31.31
2288,30.65
2296,30.02
2304,29.27
2312,28.59
2320,28.19
2328,27.84
2336,27.64
2344,28.24
2352,29.54
2360,31.27
2368,33
2376,34.07
2384,34.37
2392,34.22
2400,33.71
2408,33.18
2416,32.49
2424,31.69
2432,30.81
2440,29.61
2448,28.23
2456,26.88
2464,25.95
2472,25.12
2480,24.59
2488,24.1
2496,23.43
2500,23.06

File: Carbonate_Fe_2520_FeCalcite_Siderite_01.csv
Wavelength (nm),Reflectance (%)
448,49.61
456,51.5
464,52.46
472,53.54
480,54.49
488,55.17
496,55.45
504,55.86
512,56.37
520,56.82
528,57.23
536,57.53
544,57.74
552,58.03
560,58.21
568,58.37
576,58.54
584,58.56
592,58.65
600,58.65
608,58.66
616,58.57
624,58.48
632,58.45
640,58.44
648,58.34
656,58.28
664,58.21
672,58.07
680,57.97
688,57.89
696,57.82
704,57.66
712,57.39
720,57.28
728,57.22
736,57.04
744,56.97
752,56.89
760,56.75
768,56.52
776,56.33
784,56.03
792,55.71
800,55.49
808,55.19
816,54.85
824,54.6
832,54.55
840,54.2
848,53.83
856,53.62
864,53.34
872,52.87
880,52.29
888,51.74
896,51.36
904,50.74
912,50.03
920,49.39
928,48.79
936,48.24
944,47.49
952,46.82
960,46.23
968,45.71
976,45.1
984,44.5
992,44
1000,43.4
1008,42.85
1016,42.36
1024,41.87
1032,41.36
1040,40.93
1048,40.48
1056,40.08
1064,39.71
1072,39.38
1080,39.08
1088,38.89
1096,38.6
1104,38.4
1112,38.25
1120,38.05
1128,37.9
1136,37.83
1144,37.84
1152,37.79
1160,37.72
1168,37.68
1176,37.64
1184,37.6
1192,37.56
1200,37.63
1208,37.55
1216,37.71
1224,37.76
1232,37.71
1240,37.71
1248,37.77
1256,37.69
1264,37.59
1272,37.48
1280,37.42
1288,37.23
1296,37.17
1304,37.19
1312,37.16
1320,37.03
1328,36.94
1336,36.88
1344,36.72
1352,36.53
1360,36.36
1368,36.26
1376,36.15
1384,36.01
1392,35.84
1400,35.72
1408,35.56
1416,35.38
1424,35.34
1432,35.48
1440,35.48
1448,35.41
1456,35.48
1464,35.57
1472,35.7
1480,35.85
1488,36.05
1496,36.08
1504,36.19
1512,36.53
1520,36.7
1528,36.87
1536,37.2
1544,37.55
1552,37.9
1560,38.1
1568,38.44
1576,38.78
1584,39.15
1592,39.51
1600,39.96
1608,40.25
1616,40.53
1624,40.83
1632,40.88
1640,41.07
1648,41.05
1656,41.49
1664,41.6
1672,41.74
1680,41.96
1688,41.96
1696,42.32
1704,42.49
1712,42.57
1720,42.79
1728,42.83
1736,42.7
1744,42.75
1752,43.11
1760,43.24
1768,43.54
1776,43.68
1784,43.91
1792,44.04
1800,43.95
1808,44.07
1816,43.97
1824,43.95
1832,43.62
1840,43.25
1848,43.06
1856,42.68
1864,41.83
1872,40.85
1880,40.84
1888,41.29
1896,40.8
1904,39.99
1912,39.42
1920,38.97
1928,38.98
1936,38.84
1944,38.62
1952,38.61
1960,38.66
1968,38.65
1976,38.49
1984,38.46
1992,38.22
2000,38.66
2008,39.72
2016,40.57
2024,41.27
2032,41.99
2040,42.23
2048,42.4
2056,42.6
2064,42.79
2072,42.89
2080,43.06
2088,43.09
2096,42.83
2104,42.55
2112,42.26
2120,41.96
2128,41.55
2136,40.83
2144,39.78
2152,39.13
2160,39.34
2168,39.83
2176,40.26
2184,40.31
2192,40.13
2200,39.74
2208,39.28
2216,38.57
2224,37.58
2232,36.54
2240,35.16
2248,33.75
2256,32.06
2264,30.62
2272,28.52
2280,26.6
2288,25.05
2296,23.85
2304,22.93
2312,22.02
2320,20.97
2328,19.96
2336,19.3
2344,19.83
2352,22.06
2360,25.65
2368,28.77
2376,30.69
2384,31.96
2392,32.57
2400,32.58
2408,32.42
2416,31.92
2424,30.59
2432,29.09
2440,27.65
2448,26.11
2456,24.3
2464,22.54
2472,21.07
2480,19.93
2488,20.01
2496,20
2500,20.46