Folder: hyperspectral_notebook/reference_lib (part 2)

File: Carbonate_Fe_2520_FeDolomite_Ankerite_01.csv
PROF_LIB_FeDolomiteAnkerite_Wavelength (nm),PROF_LIB_FeDolomiteAnkerite_Reflectance (%)
452,54.93
460,55.49
468,55.81
476,55.87
484,56.07
492,56.29
500,56.56
508,56.62
516,56.71
524,56.62
532,56.68
540,56.61
548,56.7
556,56.5
564,56.4
572,56.16
580,55.91
588,55.92
596,55.91
604,55.96
612,56
620,55.98
628,55.87
636,55.73
644,55.75
652,55.64
660,55.76
668,55.64
676,55.62
684,55.51
692,55.54
700,55.53
708,55.44
716,55.35
724,55.32
732,55.12
740,54.7
748,54.7
756,54.81
764,54.69
772,54.61
780,54.26
788,54.09
796,53.77
804,53.62
812,53.62
820,53.54
828,53.27
836,52.99
844,52.52
852,52.25
860,51.83
868,51.35
876,51.05
884,50.82
892,50.27
900,50.01
908,49.76
916,49.32
924,48.83
932,48.53
940,48.27
948,48.03
956,47.56
964,47.25
972,46.83
980,46.8
988,46.39
996,46.28
1004,46
1012,45.97
1020,45.63
1028,45.72
1036,45.4
1044,45.66
1052,45.42
1060,45.54
1068,45.53
1076,45.84
1084,45.71
1092,45.78
1100,45.9
1108,45.93
1116,45.98
1124,46.25
1132,46.26
1140,46.31
1148,46.2
1156,46.46
1164,46.45
1172,46.56
1180,46.34
1188,46.49
1196,46.36
1204,46.59
1212,46.6
1220,46.49
1228,46.46
1236,46.55
1244,46.37
1252,46.59
1260,46.44
1268,46.61
1276,46.75
1284,46.66
1292,46.76
1300,46.7
1308,46.96
1316,47.01
1324,47.05
1332,47.21
1340,47.42
1348,47.68
1356,47.72
1364,47.83
1372,47.84
1380,47.9
1388,47.91
1396,47.93
1404,47.79
1412,47.93
1420,47.79
1428,47.96
1436,48.1
1444,48.14
1452,48.53
1460,48.55
1468,48.77
1476,49.09
1484,49.52
1492,49.93
1500,50.32
1508,50.43
1516,50.7
1524,51.12
1532,51.51
1540,51.58
1548,51.83
1556,51.84
1564,52.2
1572,52.48
1580,52.57
1588,52.73
1596,52.9
1604,52.87
1612,53.09
1620,53.22
1628,53.19
1636,53.18
1644,53.46
1652,53.55
1660,53.6
1668,53.49
1676,53.41
1684,53.38
1692,53.56
1700,53.32
1708,53.43
1716,53.4
1724,53.33
1732,53.05
1740,53.15
1748,53.12
1756,53.26
1764,53.33
1772,53.12
1780,53
1788,52.89
1796,52.64
1804,52.6
1812,52.42
1820,52.38
1828,52.2
1836,51.89
1844,51.63
1852,50.99
1860,50.46
1868,50.23
1876,49.72
1884,48.14
1892,45.92
1900,43.8
1908,42.28
1916,41.51
1924,40.85
1932,40.51
1940,40.56
1948,40.8
1956,41.05
1964,41.4
1972,41.73
1980,42.18
1988,43.01
1996,43.7
2004,44.28
2012,45.19
2020,45.8
2028,46.09
2036,46.5
2044,46.9
2052,47.28
2060,47.37
2068,47.69
2076,47.99
2084,48.03
2092,48.15
2100,48.56
2108,48.47
2116,48.4
2124,48.35
2132,48.21
2140,48.27
2148,48.02
2156,48.09
2164,48.06
2172,47.69
2180,47.33
2188,46.91
2196,46.42
2204,45.97
2212,45.05
2220,44.62
2228,43.87
2236,42.93
2244,41.44
2252,39.59
2260,38.14
2268,36.94
2276,36.23
2284,35.68
2292,34.74
2300,33.81
2308,33.12
2316,32.36
2324,32.33
2332,33.71
2340,36.19
2348,39.2
2356,41.24
2364,41.79
2372,41.7
2380,40.98
2388,40.46
2396,39.6
2404,38.78
2412,37.85
2420,36.42
2428,34.78
2436,33.08
2444,31.22
2452,29.57
2460,28.45
2468,27.78
2476,27.1
2484,26.22
2492,25.28
2500,24.74
2508,24.19
2516,24.18
2524,25
2532,26.8
2540,29.14
2548,31.26
2556,32.9
2560,33.87

File: Hydrous-Silica_02.csv
Wavelength (nm),Reflectance (%)
448,91.12
456,92.37
464,93.34
472,94.02
480,94.6
488,95.04
496,95.24
504,95.82
512,96.31
520,96.8
528,97.38
536,97.91
544,98.23
552,98.47
560,98.64
568,98.78
576,98.9
584,99.15
592,99.34
600,99.37
608,99.41
616,99.51
624,99.57
632,99.64
640,99.79
648,99.9
656,99.96
664,99.99
672,99.99
680,99.96
688,99.91
696,99.81
704,99.65
712,99.47
720,99.27
728,99.01
736,98.69
744,98.4
752,98.13
760,97.88
768,97.57
776,97.33
784,97.07
792,96.77
800,96.43
808,96.07
816,95.69
824,95.31
832,94.9
840,94.41
848,94.02
856,93.74
864,93.38
872,92.98
880,92.61
888,92.23
896,91.97
904,91.56
912,90.92
920,90.44
928,90.09
936,89.36
944,88.06
952,86.73
960,85.61
968,84.93
976,84.62
984,84.46
992,84.49
1000,84.5
1008,84.5
1016,84.52
1024,84.57
1032,84.62
1040,84.59
1048,84.48
1056,84.36
1064,84.15
1072,83.88
1080,83.51
1088,83.03
1096,82.51
1104,81.94
1112,81.28
1120,80.45
1128,79.25
1136,77.39
1144,75.09
1152,73.15
1160,72.15
1168,71.75
1176,71.5
1184,71.21
1192,70.92
1200,70.68
1208,70.56
1216,70.42
1224,70.31
1232,70.13
1240,69.9
1248,69.66
1256,69.48
1264,69.21
1272,68.81
1280,68.3
1288,67.64
1296,66.78
1304,65.75
1312,64.49
1320,62.91
1328,61.05
1336,59.14
1344,57.35
1352,55.79
1360,54.18
1368,51.91
1376,48.15
1384,42.87
1392,36.92
1400,31.68
1408,28
1416,25.97
1424,24.91
1432,24.3
1440,23.91
1448,23.65
1456,23.56
1464,23.82
1472,24.46
1480,25.39
1488,26.46
1496,27.6
1504,28.73
1512,29.94
1520,31.21
1528,32.43
1536,33.53
1544,34.53
1552,35.44
1560,36.24
1568,36.94
1576,37.59
1584,38.15
1592,38.6
1600,38.99
1608,39.31
1616,39.55
1624,39.69
1632,39.73
1640,39.78
1648,39.82
1656,39.77
1664,39.7
1672,39.61
1680,39.45
1688,39.18
1696,38.83
1704,38.4
1712,37.94
1720,37.31
1728,36.62
1736,35.81
1744,34.91
1752,33.75
1760,32.63
1768,31.73
1776,31.05
1784,30.45
1792,30.07
1800,29.85
1808,29.74
1816,29.57
1824,29.26
1832,28.73
1840,27.88
1848,26.44
1856,24.16
1864,20.54
1872,15.65
1880,10.23
1888,5.55
1896,2.43
1904,0.93
1912,0.36
1920,0.07
1928,0
1936,0.09
1944,0.27
1952,0.51
1960,0.87
1968,1.26
1976,1.72
1984,2.27
1992,2.85
2000,3.41
2008,3.99
2016,4.58
2024,5.18
2032,5.81
2040,6.44
2048,7.11
2056,7.64
2064,8.16
2072,8.78
2080,9.48
2088,10.15
2096,10.75
2104,11.36
2112,11.92
2120,12.45
2128,12.86
2136,13.17
2144,13.41
2152,13.58
2160,13.6
2168,13.5
2176,13.29
2184,13.02
2192,12.59
2200,12.07
2208,11.62
2216,11.42
2224,11.37
2232,11.36
2240,11.27
2248,11.16
2256,11.09
2264,11.07
2272,11.03
2280,10.97
2288,10.94
2296,10.92
2304,10.87
2312,10.85
2320,10.86
2328,10.91
2336,10.95
2344,11.01
2352,11.02
2360,11.05
2368,11.04
2376,11.06
2384,11.18
2392,11.47
2400,11.84
2408,12.2
2416,12.52
2424,12.85
2432,13.17
2440,13.59
2448,13.89
2456,14.19
2464,14.59
2472,15.16
2480,15.81
2488,16.73
2496,17.78
2500,18.2

File: IronOxide_02.csv
Wavelength (nm),Reflectance (%)
448,3.6
456,3.4
464,2.5
472,1.43
480,0.78
488,0.25
496,0
504,0.54
512,1.39
520,2.81
528,5.55
536,9.03
544,12.9
552,16.89
560,20.98
568,24.38
576,27.05
584,29.12
592,30.55
600,31.49
608,32.23
616,32.77
624,33.34
632,33.82
640,34.41
648,35.09
656,36.09
664,37.21
672,38.56
680,40.1
688,41.9
696,43.9
704,45.95
712,48.09
720,50.17
728,52.15
736,54
744,55.5
752,56.7
760,57.45
768,57.72
776,57.55
784,57.05
792,56.32
800,55.24
808,53.97
816,52.63
824,51.37
832,50.11
840,48.98
848,47.97
856,47.04
864,46.16
872,45.41
880,44.81
888,44.37
896,43.99
904,43.77
912,43.68
920,43.64
928,43.71
936,43.89
944,44.24
952,44.61
960,45.11
968,45.7
976,46.35
984,47.04
992,47.78
1000,48.61
1008,49.52
1016,50.52
1024,51.61
1032,52.74
1040,53.95
1048,55.22
1056,56.6
1064,58.04
1072,59.53
1080,61.12
1088,62.82
1096,64.57
1104,66.31
1112,68.06
1120,69.88
1128,71.77
1136,73.66
1144,75.48
1152,77.24
1160,78.89
1168,80.43
1176,81.95
1184,83.45
1192,84.78
1200,86
1208,87.14
1216,88.24
1224,89.2
1232,90.07
1240,90.87
1248,91.55
1256,92.13
1264,92.62
1272,93.07
1280,93.46
1288,93.81
1296,94.1
1304,94.38
1312,94.65
1320,94.91
1328,95.18
1336,95.38
1344,95.45
1352,95.38
1360,95.43
1368,95.51
1376,95.58
1384,95.62
1392,95.7
1400,95.76
1408,95.72
1416,95.69
1424,95.7
1432,95.84
1440,95.9
1448,96.05
1456,96.25
1464,96.58
1472,96.94
1480,97.31
1488,97.49
1496,97.63
1504,97.76
1512,97.96
1520,98.2
1528,98.42
1536,98.53
1544,98.62
1552,98.76
1560,98.87
1568,98.9
1576,98.88
1584,98.88
1592,98.8
1600,98.83
1608,98.83
1616,98.75
1624,98.59
1632,98.41
1640,98.22
1648,98.07
1656,98.25
1664,98.39
1672,98.53
1680,98.39
1688,98.22
1696,98.14
1704,98.19
1712,98.13
1720,98.09
1728,98.09
1736,98.12
1744,98.06
1752,98.07
1760,97.99
1768,97.87
1776,97.77
1784,97.78
1792,97.82
1800,97.82
1808,97.78
1816,97.95
1824,98.07
1832,98.1
1840,98.1
1848,98.29
1856,98.18
1864,97.88
1872,97.37
1880,96.91
1888,96.27
1896,95.4
1904,94.28
1912,93.4
1920,93.13
1928,93.29
1936,93.53
1944,93.77
1952,93.98
1960,94.06
1968,94.29
1976,94.57
1984,94.83
1992,95.04
2000,95.36
2008,95.72
2016,96.11
2024,96.63
2032,97.05
2040,97.5
2048,97.97
2056,98.45
2064,98.67
2072,98.76
2080,98.88
2088,99.06
2096,99.27
2104,99.56
2112,99.96
2120,99.97
2128,99.99
2136,99.98
2144,99.74
2152,99.39
2160,99.08
2168,98.83
2176,98.28
2184,97.69
2192,97.12
2200,96.25
2208,95.61
2216,95.22
2224,95.18
2232,94.72
2240,94.42
2248,93.86
2256,93.15
2264,92.4
2272,91.91
2280,91.58
2288,91.07
2296,90.54
2304,89.88
2312,89.32
2320,88.85
2328,88.69
2336,88.34
2344,88.04
2352,87.55
2360,86.87
2368,86.11
2376,85.51
2384,85.07
2392,84.62
2400,84.2
2408,83.77
2416,83.42
2424,83.21
2432,83.02
2440,82.87
2448,82.72
2456,82.63
2464,82.66
2472,82.79
2480,82.88
2484,82.89

File: IronOxide_03.csv
Wavelength (nm),Reflectance (%)
448,6.06
456,3.02
464,1.19
472,0.63
480,0.17
488,0.13
496,0.12
504,0.43
512,1.04
520,2.66
528,4.75
536,7.7
544,11.5
552,15.99
560,20.96
568,26.17
576,30.98
584,35.11
592,38.5
600,40.92
608,42.48
616,43.5
624,44.11
632,44.45
640,44.62
648,44.91
656,45.35
664,45.96
672,46.67
680,47.52
688,48.56
696,49.78
704,51.08
712,52.54
720,54.03
728,55.49
736,56.69
744,57.63
752,58.23
760,58.43
768,58.21
776,57.69
784,56.86
792,55.81
800,54.62
808,53.28
816,51.86
824,50.41
832,49
840,47.74
848,46.63
856,45.56
864,44.63
872,43.72
880,42.93
888,42.35
896,42.04
904,41.86
912,41.65
920,41.44
928,41.49
936,41.6
944,41.85
952,42.19
960,42.6
968,43.12
976,43.69
984,44.39
992,45.13
1000,45.87
1008,46.71
1016,47.67
1024,48.67
1032,49.74
1040,50.93
1048,52.23
1056,53.62
1064,55.08
1072,56.62
1080,58.2
1088,59.92
1096,61.75
1104,63.65
1112,65.56
1120,67.6
1128,69.67
1136,71.76
1144,73.86
1152,75.97
1160,78.1
1168,80.17
1176,82.15
1184,84.01
1192,85.72
1200,87.33
1208,88.88
1216,90.36
1224,91.8
1232,93.02
1240,94.12
1248,95.14
1256,96.09
1264,96.78
1272,97.37
1280,97.92
1288,98.34
1296,98.7
1304,99.09
1312,99.45
1320,99.72
1328,99.91
1336,100
1344,99.82
1352,99.52
1360,99.47
1368,99.65
1376,99.62
1384,99.25
1392,98.62
1400,97.63
1408,96.64
1416,96.11
1424,96.07
1432,96.2
1440,96.3
1448,96.34
1456,96.36
1464,96.35
1472,96.42
1480,96.57
1488,96.73
1496,96.81
1504,96.83
1512,96.83
1520,96.82
1528,96.84
1536,96.8
1544,96.76
1552,96.72
1560,96.69
1568,96.59
1576,96.5
1584,96.41
1592,96.24
1600,96.01
1608,95.69
1616,95.39
1624,95.17
1632,95.26
1640,95.22
1648,95.02
1656,94.72
1664,94.42
1672,94.38
1680,94.37
1688,94.23
1696,93.94
1704,93.74
1712,93.59
1720,93.37
1728,93.05
1736,92.68
1744,92.33
1752,92.04
1760,91.85
1768,91.64
1776,91.43
1784,91.25
1792,91.21
1800,91.12
1808,90.99
1816,90.78
1824,90.55
1832,90.25
1840,90.17
1848,90.15
1856,89.87
1864,89.3
1872,88.77
1880,88.16
1888,86.96
1896,84.97
1904,82.86
1912,81.12
1920,80.05
1928,79.45
1936,79.18
1944,79.12
1952,79.32
1960,79.66
1968,79.95
1976,80.27
1984,80.87
1992,81.63
2000,82.24
2008,82.69
2016,83.25
2024,83.79
2032,84.28
2040,84.65
2048,84.97
2056,85.24
2064,85.59
2072,85.91
2080,86.03
2088,86.12
2096,86.23
2104,86.39
2112,86.6
2120,86.95
2128,87.22
2136,87
2144,86.38
2152,85.65
2160,84.88
2168,83.74
2176,82.43
2184,81.01
2192,79.68
2200,78.6
2208,78.04
2216,77.83
2224,77.66
2232,77.35
2240,76.94
2248,76.51
2256,76.11
2264,75.7
2272,75.31
2280,74.85
2288,74.46
2296,74.07
2304,73.57
2312,72.95
2320,72.36
2328,71.85
2336,71.33
2344,70.78
2352,70.32
2360,69.92
2368,69.52
2376,69.08
2384,68.86
2392,68.65
2400,68.36
2408,68.01
2416,67.67
2424,67.36
2432,67.09
2440,66.93
2448,66.77
2456,66.62
2464,66.5
2472,66.56
2480,66.63
2488,66.81
2496,67.07
2500,67.19

File: IronOxide_04.csv
Wavelength (nm),Reflectance (%)
452,8.3
460,8.2
468,8.1
476,8.1
484,8.3
492,8.7
500,9.3
508,10.2
516,11.6
524,13.4
532,15.6
540,18.2
548,21
556,23.6
564,25.9
572,27.6
580,28.6
588,29.1
596,29.3
604,29.2
612,29
620,28.7
628,28.5
636,28.3
644,28.2
652,28.2
660,28.3
668,28.6
676,28.9
684,29.3
692,29.9
700,30.6
708,31.3
716,32
724,32.8
732,33.4
740,34
748,34.4
756,34.6
764,34.6
772,34.4
780,34
788,33.5
796,32.8
804,32.2
812,31.5
820,30.8
828,30.1
836,29.5
844,28.9
852,28.4
860,27.9
868,27.5
876,27.2
884,26.9
892,26.6
900,26.5
908,26.4
916,26.3
924,26.3
932,26.3
940,26.4
948,26.4
956,26.6
964,26.8
972,27
980,27.3
988,27.5
996,27.8
1004,28.1
1012,28.4
1020,28.8
1028,29.1
1036,29.5
1044,30
1052,30.4
1060,30.9
1068,31.5
1076,32
1084,32.6
1092,33.2
1100,33.8
1108,34.4
1116,35.1
1124,35.7
1132,36.4
1140,37.1
1148,37.8
1156,38.4
1164,39
1172,39.6
1180,40.1
1188,40.7
1196,41.2
1204,41.6
1212,42.1
1220,42.5
1228,42.9
1236,43.2
1244,43.5
1252,43.8
1260,44
1268,44.2
1276,44.4
1284,44.5
1292,44.6
1300,44.7
1308,44.8
1316,44.8
1324,44.8
1332,44.8
1340,44.8
1348,44.7
1356,44.6
1364,44.5
1372,44.4
1380,44.3
1388,44.1
1396,44
1404,43.9
1412,43.7
1420,43.5
1428,43.4
1436,43.3
1444,43.2
1452,43.1
1460,43.1
1468,43.1
1476,43.1
1484,43.1
1492,43.1
1500,43.1
1508,43.1
1516,43.1
1524,43.1
1532,43.1
1540,43
1548,43
1556,42.9
1564,42.8
1572,42.7
1580,42.5
1588,42.4
1596,42.2
1604,42.1
1612,41.9
1620,41.7
1628,41.5
1636,41.2
1644,41
1652,40.9
1660,40.8
1668,40.6
1676,40.4
1684,40.3
1692,40.2
1700,40.1
1708,40
1716,39.9
1724,39.7
1732,39.6
1740,39.3
1748,39.1
1756,39
1764,39
1772,38.9
1780,38.8
1788,38.7
1796,38.6
1804,38.6
1812,38.4
1820,38.3
1828,38.3
1836,38.3
1844,38.2
1852,38.1
1860,37.8
1868,37.6
1876,37.3
1884,37
1892,36.6
1900,36.2
1908,35.9
1916,35.6
1924,35.4
1932,35.3
1940,35.2
1948,35.2
1956,35.2
1964,35.2
1972,35.2
1980,35.2
1988,35.2
1996,35.3
2004,35.4
2012,35.5
2020,35.6
2028,35.7
2036,35.8
2044,35.8
2052,35.9
2060,35.9
2068,35.9
2076,35.9
2084,35.9
2092,35.9
2100,35.8
2108,35.8
2116,35.7
2124,35.5
2132,35.4
2140,35.3
2148,35.1
2156,34.9
2164,34.7
2172,34.6
2180,34.4
2188,34.2
2196,34
2204,33.8
2212,33.6
2220,33.4
2228,33.2
2236,33.1
2244,32.8
2252,32.6
2260,32.5
2268,32.3
2276,32.2
2284,32
2292,31.9
2300,31.8
2308,31.6
2316,31.4
2324,31.3
2332,31.1
2340,31
2348,30.9
2356,30.8
2364,30.6
2372,30.5
2380,30.3
2388,30.1
2396,29.9
2404,29.8
2412,29.8
2420,29.9
2428,29.9
2436,30
2444,30.1
2452,30.2
2460,30.3
2468,30.3
2476,30.5
2484,30.7
2488,30.8

File: IronOxide_05.csv
Wavelength (nm),Reflectance (%)
452,4.2
460,4.2
468,4.1
476,4.1
484,4.2
492,4.2
500,4.3
508,4.5
516,4.9
524,5.4
532,6
540,6.8
548,7.7
556,8.7
564,9.7
572,10.5
580,11.1
588,11.4
596,11.6
604,11.5
612,11.5
620,11.4
628,11.3
636,11.2
644,11.1
652,11.1
660,11.1
668,11.2
676,11.4
684,11.6
692,11.8
700,12.1
708,12.5
716,12.9
724,13.3
732,13.6
740,14
748,14.2
756,14.3
764,14.3
772,14.1
780,13.8
788,13.5
796,13.1
804,12.8
812,12.4
820,12
828,11.6
836,11.3
844,11
852,10.7
860,10.5
868,10.3
876,10.2
884,10
892,9.9
900,9.8
908,9.8
916,9.8
924,9.8
932,9.8
940,9.9
948,9.9
956,10
964,10.1
972,10.2
980,10.3
988,10.5
996,10.6
1004,10.8
1012,10.9
1020,11.1
1028,11.3
1036,11.6
1044,11.8
1052,12.1
1060,12.4
1068,12.7
1076,13.1
1084,13.5
1092,13.9
1100,14.4
1108,14.8
1116,15.4
1124,15.9
1132,16.6
1140,17.2
1148,17.9
1156,18.7
1164,19.5
1172,20.3
1180,21.1
1188,22
1196,23
1204,23.9
1212,24.9
1220,25.8
1228,26.8
1236,27.8
1244,28.8
1252,29.8
1260,30.7
1268,31.6
1276,32.5
1284,33.3
1292,34
1300,34.7
1308,35.3
1316,35.8
1324,36.2
1332,36.5
1340,36.7
1348,36.8
1356,36.9
1364,36.8
1372,36.5
1380,35.9
1388,34.7
1396,33.2
1404,31.6
1412,30.3
1420,29.5
1428,29.1
1436,29
1444,29
1452,29.1
1460,29.1
1468,29.3
1476,29.4
1484,29.7
1492,30
1500,30.2
1508,30.4
1516,30.5
1524,30.7
1532,30.7
1540,30.7
1548,30.7
1556,30.6
1564,30.4
1572,30.1
1580,29.8
1588,29.4
1596,29
1604,28.5
1612,28.1
1620,27.6
1628,27.2
1636,26.8
1644,26.4
1652,26.1
1660,25.9
1668,25.7
1676,25.5
1684,25.3
1692,25.2
1700,25.1
1708,24.9
1716,24.7
1724,24.5
1732,24.3
1740,24.1
1748,23.8
1756,23.6
1764,23.5
1772,23.4
1780,23.4
1788,23.3
1796,23.3
1804,23.3
1812,23.3
1820,23.2
1828,23.2
1836,23.2
1844,23
1852,22.8
1860,22.4
1868,21.7
1876,20.4
1884,18.8
1892,17.3
1900,16.6
1908,16.5
1916,16.6
1924,16.7
1932,16.8
1940,16.9
1948,17.1
1956,17.3
1964,17.5
1972,17.8
1980,18
1988,18.2
1996,18.4
2004,18.7
2012,18.9
2020,19.2
2028,19.5
2036,19.7
2044,19.8
2052,19.9
2060,20
2068,20.1
2076,20.2
2084,20.3
2092,20.3
2100,20.3
2108,20.3
2116,20.3
2124,20.2
2132,20.1
2140,20
2148,19.8
2156,19.6
2164,19.3
2172,19
2180,18.7
2188,18.4
2196,18
2204,17.6
2212,17.3
2220,17
2228,16.8
2236,16.5
2244,16.3
2252,16
2260,15.8
2268,15.7
2276,15.6
2284,15.4
2292,15.3
2300,15.3
2308,15.2
2316,15.1
2324,15
2332,14.9
2340,14.7
2348,14.6
2356,14.5
2364,14.3
2372,14.2
2380,14.1
2388,13.9
2396,13.8
2404,13.8
2412,13.7
2420,13.7
2428,13.8
2436,13.9
2444,13.9
2452,14
2460,14
2468,14.2
2476,14.4
2484,14.7
2488,14.8

File: IronOxide_Hematite_01.csv
Wavelength (nm),Reflectance (%)
448,13.8
456,10.9
464,9.16
472,8.6
480,8.49
488,8.31
496,8.36
504,8.33
512,8.43
520,8.44
528,8.65
536,8.89
544,9.23
552,9.66
560,10.14
568,10.7
576,11.29
584,11.93
592,12.48
600,12.93
608,13.27
616,13.53
624,13.69
632,13.84
640,13.98
648,14.11
656,14.26
664,14.43
672,14.66
680,14.96
688,15.27
696,15.63
704,16.01
712,16.44
720,16.87
728,17.32
736,17.73
744,18.04
752,18.27
760,18.42
768,18.43
776,18.33
784,18.18
792,17.96
800,17.72
808,17.45
816,17.13
824,16.83
832,16.53
840,16.25
848,16.01
856,15.83
864,15.69
872,15.57
880,15.45
888,15.4
896,15.38
904,15.41
912,15.5
920,15.61
928,15.7
936,15.81
944,15.99
952,16.17
960,16.37
968,16.59
976,16.82
984,17.02
992,17.25
1000,17.5
1008,17.71
1016,17.89
1024,18.07
1032,18.24
1040,18.41
1048,18.6
1056,18.76
1064,18.91
1072,19.11
1080,19.34
1088,19.53
1096,19.74
1104,19.98
1112,20.2
1120,20.38
1128,20.57
1136,20.79
1144,21
1152,21.19
1160,21.35
1168,21.5
1176,21.63
1184,21.73
1192,21.81
1200,21.91
1208,21.99
1216,22.03
1224,22.07
1232,22.1
1240,22.09
1248,22.07
1256,22.04
1264,22.01
1272,21.98
1280,21.94
1288,21.9
1296,21.86
1304,21.83
1312,21.77
1320,21.7
1328,21.64
1336,21.58
1344,21.51
1352,21.41
1360,21.34
1368,21.29
1376,21.23
1384,21.19
1392,21.12
1400,21.08
1408,21.03
1416,20.97
1424,20.89
1432,20.81
1440,20.78
1448,20.77
1456,20.76
1464,20.73
1472,20.69
1480,20.65
1488,20.63
1496,20.61
1504,20.59
1512,20.58
1520,20.54
1528,20.51
1536,20.49
1544,20.46
1552,20.41
1560,20.37
1568,20.34
1576,20.32
1584,20.3
1592,20.28
1600,20.23
1608,20.17
1616,20.11
1624,20.05
1632,20.03
1640,20
1648,20.01
1656,20
1664,19.94
1672,19.86
1680,19.86
1688,19.87
1696,19.88
1704,19.89
1712,19.91
1720,19.87
1728,19.84
1736,19.83
1744,19.8
1752,19.73
1760,19.68
1768,19.68
1776,19.68
1784,19.67
1792,19.68
1800,19.68
1808,19.69
1816,19.68
1824,19.65
1832,19.59
1840,19.6
1848,19.63
1856,19.62
1864,19.6
1872,19.57
1880,19.53
1888,19.42
1896,19.31
1904,19.18
1912,19.09
1920,18.97
1928,18.87
1936,18.82
1944,18.84
1952,18.89
1960,18.96
1968,19.03
1976,19.08
1984,19.12
1992,19.15
2000,19.19
2008,19.21
2016,19.26
2024,19.3
2032,19.37
2040,19.44
2048,19.53
2056,19.59
2064,19.63
2072,19.67
2080,19.67
2088,19.68
2096,19.69
2104,19.73
2112,19.76
2120,19.81
2128,19.84
2136,19.82
2144,19.76
2152,19.7
2160,19.66
2168,19.58
2176,19.47
2184,19.39
2192,19.34
2200,19.32
2208,19.3
2216,19.3
2224,19.24
2232,19.17
2240,19.14
2248,19.08
2256,19.01
2264,18.96
2272,18.96
2280,18.97
2288,18.95
2296,18.89
2304,18.85
2312,18.82
2320,18.82
2328,18.82
2336,18.81
2344,18.77
2352,18.73
2360,18.71
2368,18.69
2376,18.67
2384,18.65
2392,18.6
2400,18.55
2408,18.51
2416,18.51
2424,18.5
2432,18.5
2440,18.5
2448,18.51
2456,18.51
2464,18.53
2472,18.54
2480,18.56
2488,18.57
2496,18.63
2500,18.66

File: IronOxide_Hematite_02.csv
Wavelength (nm),Reflectance (%)
400,0.035922
408,0.0363
416,0.036515
424,0.03666
432,0.036697
440,0.0366
448,0.036462
456,0.036498
464,0.036534
472,0.036544
480,0.036528
488,0.036839
496,0.037432
504,0.038039
512,0.038601
520,0.039456
528,0.040711
536,0.042699
544,0.04606
552,0.052268
560,0.064122
568,0.085591
576,0.118844
584,0.161555
592,0.205966
600,0.243318
608,0.269137
616,0.285329
624,0.295203
632,0.302279
640,0.308911
648,0.316004
656,0.324555
664,0.334975
672,0.347233
680,0.361462
688,0.37748
696,0.395056
704,0.413378
712,0.431356
720,0.448027
728,0.460997
736,0.469836
744,0.47314
752,0.470693
760,0.463982
768,0.45483
776,0.443016
784,0.430151
792,0.417835
800,0.405817
808,0.394781
816,0.384798
824,0.376438
832,0.369556
840,0.364163
848,0.360914
856,0.356576
864,0.354577
872,0.354653
880,0.35706
888,0.362446
896,0.367429
904,0.375145
912,0.384596
920,0.393673
928,0.405818
936,0.42107
944,0.437535
952,0.454379
960,0.473178
968,0.493771
976,0.515612
984,0.536436
992,0.558263
1000,0.578751
1008,0.599314
1016,0.616364
1024,0.632936
1032,0.647873
1040,0.659877
1048,0.672085
1056,0.685153
1064,0.695125
1072,0.704709
1080,0.715736
1088,0.725212
1096,0.737504
1104,0.748461
1112,0.760188
1120,0.770168
1128,0.781041
1136,0.793718
1144,0.804775
1152,0.814598
1160,0.826662
1168,0.835577
1176,0.845674
1184,0.854221
1192,0.860809
1200,0.866657
1208,0.874526
1216,0.879836
1224,0.882673
1232,0.889285
1240,0.892289
1248,0.894328
1256,0.896228
1264,0.899706
1272,0.901164
1280,0.901674
1288,0.903669
1296,0.904418
1304,0.905597
1312,0.905936
1320,0.907766
1328,0.90689
1336,0.908447
1344,0.907244
1352,0.90803
1360,0.909481
1368,0.909704
1376,0.903551
1384,0.902773
1392,0.903742
1400,0.901868
1408,0.901596
1416,0.90049
1424,0.898181
1432,0.898494
1440,0.898259
1448,0.897614
1456,0.898112
1464,0.898706
1472,0.898138
1480,0.899331
1488,0.898722
1496,0.900256
1504,0.899937
1512,0.900337
1520,0.900551
1528,0.901752
1536,0.901166
1544,0.901648
1552,0.902128
1560,0.902335
1568,0.901363
1576,0.90278
1584,0.901385
1592,0.90207
1600,0.900621
1608,0.900621
1616,0.90206
1624,0.900463
1632,0.900609
1640,0.900137
1648,0.89932
1656,0.899455
1664,0.900506
1672,0.900079
1680,0.898298
1688,0.898267
1696,0.897569
1704,0.898377
1712,0.89854
1720,0.897752
1728,0.896565
1736,0.894842
1744,0.895731
1752,0.894939
1760,0.894271
1768,0.892548
1776,0.89308
1784,0.892791
1792,0.89239
1800,0.89237
1808,0.892564
1816,0.891492
1824,0.891047
1832,0.888926
1840,0.888583
1848,0.888153
1856,0.886944
1864,0.881903
1872,0.871339
1880,0.861201
1888,0.859542
1896,0.857733
1904,0.853514
1912,0.849273
1920,0.844193
1928,0.842931
1936,0.842318
1944,0.842005
1952,0.842225
1960,0.844294
1968,0.84673
1976,0.849036
1984,0.851256
1992,0.854893
2000,0.856046
2008,0.857812
2016,0.859577
2024,0.860199
2032,0.861656
2040,0.861427
2048,0.861264
2056,0.862016
2064,0.861092
2072,0.860218
2080,0.860488
2088,0.860707
2096,0.858943
2104,0.860939
2112,0.863959
2120,0.86796
2128,0.871181
2136,0.872959
2144,0.874043
2152,0.874384
2160,0.871704
2168,0.869527
2176,0.86722
2184,0.864653
2192,0.863162
2200,0.861706
2208,0.85991
2216,0.856951
2224,0.855315
2232,0.853822
2240,0.852054
2248,0.850035
2256,0.848053
2264,0.847686
2272,0.848252
2280,0.844981
2288,0.844652
2296,0.842505
2304,0.841214
2312,0.839933
2320,0.839845
2328,0.838603
2336,0.836751
2344,0.834085
2352,0.832916
2360,0.830881
2368,0.824942
2376,0.824379
2384,0.816866
2392,0.817031
2400,0.815778
2408,0.811698
2416,0.805973
2424,0.804883
2432,0.802663
2440,0.799462
2448,0.795171
2456,0.793259
2464,0.790086
2472,0.784873
2480,0.785249
2488,0.782139
2496,0.778877
2500,0.776354